time (min)	GST (deg)	GST (min)	GST (sec)	GST (hour)	GST (min)	GST (sec)
0	188.0000	36.0000	51.9659	12.0000	34.0000	27.4644
10	191.0000	7.0000	16.6071	12.0000	44.0000	29.1071
20	193.0000	37.0000	41.2483	12.0000	54.0000	30.7499
30	196.0000	8.0000	5.8895	13.0000	4.0000	32.3926
40	198.0000	38.0000	30.5307	13.0000	14.0000	34.0354
50	201.0000	8.0000	55.1719	13.0000	24.0000	35.6781
60	203.0000	39.0000	19.8130	13.0000	34.0000	37.3209
70	206.0000	9.0000	44.4542	13.0000	44.0000	38.9636
80	208.0000	40.0000	9.0954	13.0000	54.0000	40.6064
90	211.0000	10.0000	33.7366	14.0000	4.0000	42.2491
100	213.0000	40.0000	58.3778	14.0000	14.0000	43.8919
110	216.0000	11.0000	23.0190	14.0000	24.0000	45.5346
120	218.0000	41.0000	47.6601	14.0000	34.0000	47.1773
130	221.0000	12.0000	12.3013	14.0000	44.0000	48.8201
140	223.0000	42.0000	36.9425	14.0000	54.0000	50.4628
150	226.0000	13.0000	1.5837	15.0000	4.0000	52.1056
160	228.0000	43.0000	26.2249	15.0000	14.0000	53.7483
170	231.0000	13.0000	50.8661	15.0000	24.0000	55.3911
180	233.0000	44.0000	15.5073	15.0000	34.0000	57.0338
190	236.0000	14.0000	40.1484	15.0000	44.0000	58.6766
200	238.0000	45.0000	4.7896	15.0000	55.0000	0.3193
210	241.0000	15.0000	29.4308	16.0000	5.0000	1.9621
220	243.0000	45.0000	54.0720	16.0000	15.0000	3.6048
230	246.0000	16.0000	18.7132	16.0000	25.0000	5.2475
240	248.0000	46.0000	43.3544	16.0000	35.0000	6.8903
250	251.0000	17.0000	7.9955	16.0000	45.0000	8.5330
260	253.0000	47.0000	32.6367	16.0000	55.0000	10.1758
270	256.0000	17.0000	57.2779	17.0000	5.0000	11.8185
280	258.0000	48.0000	21.9191	17.0000	15.0000	13.4613
290	261.0000	18.0000	46.5603	17.0000	25.0000	15.1040
300	263.0000	49.0000	11.2015	17.0000	35.0000	16.7468
310	266.0000	19.0000	35.8426	17.0000	45.0000	18.3895
320	268.0000	50.0000	0.4838	17.0000	55.0000	20.0323
330	271.0000	20.0000	25.1250	18.0000	5.0000	21.6750
340	273.0000	50.0000	49.7662	18.0000	15.0000	23.3177
350	276.0000	21.0000	14.4074	18.0000	25.0000	24.9605
360	278.0000	51.0000	39.0486	18.0000	35.0000	26.6032
370	281.0000	22.0000	3.6898	18.0000	45.0000	28.2460
380	283.0000	52.0000	28.3309	18.0000	55.0000	29.8887
390	286.0000	22.0000	52.9721	19.0000	5.0000	31.5315
400	288.0000	53.0000	17.6133	19.0000	15.0000	33.1742
410	291.0000	23.0000	42.2545	19.0000	25.0000	34.8170
420	293.0000	54.0000	6.8957	19.0000	35.0000	36.4597
430	296.0000	24.0000	31.5369	19.0000	45.0000	38.1025
440	298.0000	54.0000	56.1780	19.0000	55.0000	39.7452
450	301.0000	25.0000	20.8192	20.0000	5.0000	41.3879
460	303.0000	55.0000	45.4604	20.0000	15.0000	43.0307
470	306.0000	26.0000	10.1016	20.0000	25.0000	44.6734
480	308.0000	56.0000	34.7428	20.0000	35.0000	46.3162
490	311.0000	26.0000	59.3840	20.0000	45.0000	47.9589
500	313.0000	57.0000	24.0251	20.0000	55.0000	49.6017
510	316.0000	27.0000	48.6663	21.0000	5.0000	51.2444
520	318.0000	58.0000	13.3075	21.0000	15.0000	52.8872
530	321.0000	28.0000	37.9487	21.0000	25.0000	54.5299
540	323.0000	59.0000	2.5899	21.0000	35.0000	56.1727
550	326.0000	29.0000	27.2311	21.0000	45.0000	57.8154
560	328.0000	59.0000	51.8723	21.0000	55.0000	59.4582
570	331.0000	30.0000	16.5134	22.0000	6.0000	1.1009
580	334.0000	0.0000	41.1546	22.0000	16.0000	2.7436
590	336.0000	31.0000	5.7958	22.0000	26.0000	4.3864
600	339.0000	1.0000	30.4370	22.0000	36.0000	6.0291
610	341.0000	31.0000	55.0782	22.0000	46.0000	7.6719
620	344.0000	2.0000	19.7194	22.0000	56.0000	9.3146
630	346.0000	32.0000	44.3605	23.0000	6.0000	10.9574
640	349.0000	3.0000	9.0017	23.0000	16.0000	12.6001
650	351.0000	33.0000	33.6429	23.0000	26.0000	14.2429
660	354.0000	3.0000	58.2841	23.0000	36.0000	15.8856
670	356.0000	34.0000	22.9253	23.0000	46.0000	17.5284
680	359.0000	4.0000	47.5665	23.0000	56.0000	19.1711
690	1.0000	35.0000	12.2076	0.0000	6.0000	20.8138
700	4.0000	5.0000	36.8488	0.0000	16.0000	22.4566
710	6.0000	36.0000	1.4900	0.0000	26.0000	24.0993
720	9.0000	6.0000	26.1312	0.0000	36.0000	25.7421
730	11.0000	36.0000	50.7724	0.0000	46.0000	27.3848
740	14.0000	7.0000	15.4136	0.0000	56.0000	29.0276
750	16.0000	37.0000	40.0548	1.0000	6.0000	30.6703
760	19.0000	8.0000	4.6959	1.0000	16.0000	32.3131
770	21.0000	38.0000	29.3371	1.0000	26.0000	33.9558
780	24.0000	8.0000	53.9783	1.0000	36.0000	35.5986
790	26.0000	39.0000	18.6195	1.0000	46.0000	37.2413
800	29.0000	9.0000	43.2607	1.0000	56.0000	38.8840
810	31.0000	40.0000	7.9019	2.0000	6.0000	40.5268
820	34.0000	10.0000	32.5430	2.0000	16.0000	42.1695
830	36.0000	40.0000	57.1842	2.0000	26.0000	43.8123
840	39.0000	11.0000	21.8254	2.0000	36.0000	45.4550
850	41.0000	41.0000	46.4666	2.0000	46.0000	47.0978
860	44.0000	12.0000	11.1078	2.0000	56.0000	48.7405
870	46.0000	42.0000	35.7490	3.0000	6.0000	50.3833
880	49.0000	13.0000	0.3901	3.0000	16.0000	52.0260
890	51.0000	43.0000	25.0313	3.0000	26.0000	53.6688
900	54.0000	13.0000	49.6725	3.0000	36.0000	55.3115
910	56.0000	44.0000	14.3137	3.0000	46.0000	56.9542
920	59.0000	14.0000	38.9549	3.0000	56.0000	58.5970
930	61.0000	45.0000	3.5961	4.0000	7.0000	0.2397
940	64.0000	15.0000	28.2373	4.0000	17.0000	1.8825
950	66.0000	45.0000	52.8784	4.0000	27.0000	3.5252
960	69.0000	16.0000	17.5196	4.0000	37.0000	5.1680
970	71.0000	46.0000	42.1608	4.0000	47.0000	6.8107
980	74.0000	17.0000	6.8020	4.0000	57.0000	8.4535
990	76.0000	47.0000	31.4432	5.0000	7.0000	10.0962
1000	79.0000	17.0000	56.0844	5.0000	17.0000	11.7390
1010	81.0000	48.0000	20.7255	5.0000	27.0000	13.3817
1020	84.0000	18.0000	45.3667	5.0000	37.0000	15.0244
1030	86.0000	49.0000	10.0079	5.0000	47.0000	16.6672
1040	89.0000	19.0000	34.6491	5.0000	57.0000	18.3099
1050	91.0000	49.0000	59.2903	6.0000	7.0000	19.9527
1060	94.0000	20.0000	23.9315	6.0000	17.0000	21.5954
1070	96.0000	50.0000	48.5727	6.0000	27.0000	23.2382
1080	99.0000	21.0000	13.2138	6.0000	37.0000	24.8809
1090	101.0000	51.0000	37.8550	6.0000	47.0000	26.5237
1100	104.0000	22.0000	2.4962	6.0000	57.0000	28.1664
1110	106.0000	52.0000	27.1374	7.0000	7.0000	29.8092
1120	109.0000	22.0000	51.7786	7.0000	17.0000	31.4519
1130	111.0000	53.0000	16.4198	7.0000	27.0000	33.0947
1140	114.0000	23.0000	41.0609	7.0000	37.0000	34.7374
1150	116.0000	54.0000	5.7021	7.0000	47.0000	36.3801
1160	119.0000	24.0000	30.3433	7.0000	57.0000	38.0229
1170	121.0000	54.0000	54.9845	8.0000	7.0000	39.6656
1180	124.0000	25.0000	19.6257	8.0000	17.0000	41.3084
1190	126.0000	55.0000	44.2669	8.0000	27.0000	42.9511
1200	129.0000	26.0000	8.9080	8.0000	37.0000	44.5939
1210	131.0000	56.0000	33.5492	8.0000	47.0000	46.2366
1220	134.0000	26.0000	58.1904	8.0000	57.0000	47.8794
1230	136.0000	57.0000	22.8316	9.0000	7.0000	49.5221
1240	139.0000	27.0000	47.4728	9.0000	17.0000	51.1649
1250	141.0000	58.0000	12.1140	9.0000	27.0000	52.8076
1260	144.0000	28.0000	36.7552	9.0000	37.0000	54.4503
1270	146.0000	59.0000	1.3963	9.0000	47.0000	56.0931
1280	149.0000	29.0000	26.0375	9.0000	57.0000	57.7358
1290	151.0000	59.0000	50.6787	10.0000	7.0000	59.3786
1300	154.0000	30.0000	15.3199	10.0000	18.0000	1.0213
1310	157.0000	0.0000	39.9611	10.0000	28.0000	2.6641
1320	159.0000	31.0000	4.6023	10.0000	38.0000	4.3068
1330	162.0000	1.0000	29.2434	10.0000	48.0000	5.9496
1340	164.0000	31.0000	53.8846	10.0000	58.0000	7.5923
1350	167.0000	2.0000	18.5258	11.0000	8.0000	9.2351
1360	169.0000	32.0000	43.1670	11.0000	18.0000	10.8778
1370	172.0000	3.0000	7.8082	11.0000	28.0000	12.5205
1380	174.0000	33.0000	32.4494	11.0000	38.0000	14.1633
1390	177.0000	3.0000	57.0905	11.0000	48.0000	15.8060
1400	179.0000	34.0000	21.7317	11.0000	58.0000	17.4488
1410	182.0000	4.0000	46.3729	12.0000	8.0000	19.0915
1420	184.0000	35.0000	11.0141	12.0000	18.0000	20.7343
1430	187.0000	5.0000	35.6553	12.0000	28.0000	22.3770
1440	189.0000	36.0000	0.2965	12.0000	38.0000	24.0198
1450	192.0000	6.0000	24.9377	12.0000	48.0000	25.6625
1460	194.0000	36.0000	49.5788	12.0000	58.0000	27.3053
1470	197.0000	7.0000	14.2200	13.0000	8.0000	28.9480
1480	199.0000	37.0000	38.8612	13.0000	18.0000	30.5907
1490	202.0000	8.0000	3.5024	13.0000	28.0000	32.2335
1500	204.0000	38.0000	28.1436	13.0000	38.0000	33.8762
1510	207.0000	8.0000	52.7848	13.0000	48.0000	35.5190
1520	209.0000	39.0000	17.4259	13.0000	58.0000	37.1617
1530	212.0000	9.0000	42.0671	14.0000	8.0000	38.8045
1540	214.0000	40.0000	6.7083	14.0000	18.0000	40.4472
1550	217.0000	10.0000	31.3495	14.0000	28.0000	42.0900
1560	219.0000	40.0000	55.9907	14.0000	38.0000	43.7327
1570	222.0000	11.0000	20.6319	14.0000	48.0000	45.3755
1580	224.0000	41.0000	45.2730	14.0000	58.0000	47.0182
1590	227.0000	12.0000	9.9142	15.0000	8.0000	48.6609
1600	229.0000	42.0000	34.5554	15.0000	18.0000	50.3037
1610	232.0000	12.0000	59.1966	15.0000	28.0000	51.9464
1620	234.0000	43.0000	23.8378	15.0000	38.0000	53.5892
1630	237.0000	13.0000	48.4790	15.0000	48.0000	55.2319
1640	239.0000	44.0000	13.1202	15.0000	58.0000	56.8747
1650	242.0000	14.0000	37.7613	16.0000	8.0000	58.5174
1660	244.0000	45.0000	2.4025	16.0000	19.0000	0.1602
1670	247.0000	15.0000	27.0437	16.0000	29.0000	1.8029
1680	249.0000	45.0000	51.6849	16.0000	39.0000	3.4457
1690	252.0000	16.0000	16.3261	16.0000	49.0000	5.0884
1700	254.0000	46.0000	40.9673	16.0000	59.0000	6.7312
1710	257.0000	17.0000	5.6084	17.0000	9.0000	8.3739
1720	259.0000	47.0000	30.2496	17.0000	19.0000	10.0166
1730	262.0000	17.0000	54.8908	17.0000	29.0000	11.6594
1740	264.0000	48.0000	19.5320	17.0000	39.0000	13.3021
1750	267.0000	18.0000	44.1732	17.0000	49.0000	14.9449
1760	269.0000	49.0000	8.8144	17.0000	59.0000	16.5876
1770	272.0000	19.0000	33.4555	18.0000	9.0000	18.2304
1780	274.0000	49.0000	58.0967	18.0000	19.0000	19.8731
1790	277.0000	20.0000	22.7379	18.0000	29.0000	21.5159
1800	279.0000	50.0000	47.3791	18.0000	39.0000	23.1586
1810	282.0000	21.0000	12.0203	18.0000	49.0000	24.8014
1820	284.0000	51.0000	36.6615	18.0000	59.0000	26.4441
1830	287.0000	22.0000	1.3027	19.0000	9.0000	28.0868
1840	289.0000	52.0000	25.9438	19.0000	19.0000	29.7296
1850	292.0000	22.0000	50.5850	19.0000	29.0000	31.3723
1860	294.0000	53.0000	15.2262	19.0000	39.0000	33.0151
1870	297.0000	23.0000	39.8674	19.0000	49.0000	34.6578
1880	299.0000	54.0000	4.5086	19.0000	59.0000	36.3006
1890	302.0000	24.0000	29.1498	20.0000	9.0000	37.9433
1900	304.0000	54.0000	53.7909	20.0000	19.0000	39.5861
1910	307.0000	25.0000	18.4321	20.0000	29.0000	41.2288
1920	309.0000	55.0000	43.0733	20.0000	39.0000	42.8716
1930	312.0000	26.0000	7.7145	20.0000	49.0000	44.5143
1940	314.0000	56.0000	32.3557	20.0000	59.0000	46.1570
1950	317.0000	26.0000	56.9969	21.0000	9.0000	47.7998
1960	319.0000	57.0000	21.6380	21.0000	19.0000	49.4425
1970	322.0000	27.0000	46.2792	21.0000	29.0000	51.0853
1980	324.0000	58.0000	10.9204	21.0000	39.0000	52.7280
1990	327.0000	28.0000	35.5616	21.0000	49.0000	54.3708
2000	329.0000	59.0000	0.2028	21.0000	59.0000	56.0135
2010	332.0000	29.0000	24.8440	22.0000	9.0000	57.6563
2020	334.0000	59.0000	49.4852	22.0000	19.0000	59.2990
2030	337.0000	30.0000	14.1263	22.0000	30.0000	0.9418
2040	340.0000	0.0000	38.7675	22.0000	40.0000	2.5845
2050	342.0000	31.0000	3.4087	22.0000	50.0000	4.2272
2060	345.0000	1.0000	28.0499	23.0000	0.0000	5.8700
2070	347.0000	31.0000	52.6911	23.0000	10.0000	7.5127
2080	350.0000	2.0000	17.3323	23.0000	20.0000	9.1555
2090	352.0000	32.0000	41.9734	23.0000	30.0000	10.7982
2100	355.0000	3.0000	6.6146	23.0000	40.0000	12.4410
2110	357.0000	33.0000	31.2558	23.0000	50.0000	14.0837
2120	0.0000	3.0000	55.8970	0.0000	0.0000	15.7265
2130	2.0000	34.0000	20.5382	0.0000	10.0000	17.3692
2140	5.0000	4.0000	45.1794	0.0000	20.0000	19.0120
2150	7.0000	35.0000	9.8205	0.0000	30.0000	20.6547
2160	10.0000	5.0000	34.4617	0.0000	40.0000	22.2974
2170	12.0000	35.0000	59.1029	0.0000	50.0000	23.9402
2180	15.0000	6.0000	23.7441	1.0000	0.0000	25.5829
2190	17.0000	36.0000	48.3853	1.0000	10.0000	27.2257
2200	20.0000	7.0000	13.0265	1.0000	20.0000	28.8684
2210	22.0000	37.0000	37.6677	1.0000	30.0000	30.5112
2220	25.0000	8.0000	2.3088	1.0000	40.0000	32.1539
2230	27.0000	38.0000	26.9500	1.0000	50.0000	33.7967
2240	30.0000	8.0000	51.5912	2.0000	0.0000	35.4394
2250	32.0000	39.0000	16.2324	2.0000	10.0000	37.0822
2260	35.0000	9.0000	40.8736	2.0000	20.0000	38.7249
2270	37.0000	40.0000	5.5148	2.0000	30.0000	40.3677
2280	40.0000	10.0000	30.1559	2.0000	40.0000	42.0104
2290	42.0000	40.0000	54.7971	2.0000	50.0000	43.6531
2300	45.0000	11.0000	19.4383	3.0000	0.0000	45.2959
2310	47.0000	41.0000	44.0795	3.0000	10.0000	46.9386
2320	50.0000	12.0000	8.7207	3.0000	20.0000	48.5814
2330	52.0000	42.0000	33.3619	3.0000	30.0000	50.2241
2340	55.0000	12.0000	58.0030	3.0000	40.0000	51.8669
2350	57.0000	43.0000	22.6442	3.0000	50.0000	53.5096
2360	60.0000	13.0000	47.2854	4.0000	0.0000	55.1524
2370	62.0000	44.0000	11.9266	4.0000	10.0000	56.7951
2380	65.0000	14.0000	36.5678	4.0000	20.0000	58.4379
2390	67.0000	45.0000	1.2090	4.0000	31.0000	0.0806
2400	70.0000	15.0000	25.8502	4.0000	41.0000	1.7233
2410	72.0000	45.0000	50.4913	4.0000	51.0000	3.3661
2420	75.0000	16.0000	15.1325	5.0000	1.0000	5.0088
2430	77.0000	46.0000	39.7737	5.0000	11.0000	6.6516
2440	80.0000	17.0000	4.4149	5.0000	21.0000	8.2943
2450	82.0000	47.0000	29.0561	5.0000	31.0000	9.9371
2460	85.0000	17.0000	53.6973	5.0000	41.0000	11.5798
2470	87.0000	48.0000	18.3384	5.0000	51.0000	13.2226
2480	90.0000	18.0000	42.9796	6.0000	1.0000	14.8653
2490	92.0000	49.0000	7.6208	6.0000	11.0000	16.5081
2500	95.0000	19.0000	32.2620	6.0000	21.0000	18.1508
2510	97.0000	49.0000	56.9032	6.0000	31.0000	19.7935
2520	100.0000	20.0000	21.5444	6.0000	41.0000	21.4363
2530	102.0000	50.0000	46.1855	6.0000	51.0000	23.0790
2540	105.0000	21.0000	10.8267	7.0000	1.0000	24.7218
2550	107.0000	51.0000	35.4679	7.0000	11.0000	26.3645
2560	110.0000	22.0000	0.1091	7.0000	21.0000	28.0073
2570	112.0000	52.0000	24.7503	7.0000	31.0000	29.6500
2580	115.0000	22.0000	49.3915	7.0000	41.0000	31.2928
2590	117.0000	53.0000	14.0327	7.0000	51.0000	32.9355
2600	120.0000	23.0000	38.6738	8.0000	1.0000	34.5783
2610	122.0000	54.0000	3.3150	8.0000	11.0000	36.2210
2620	125.0000	24.0000	27.9562	8.0000	21.0000	37.8637
2630	127.0000	54.0000	52.5974	8.0000	31.0000	39.5065
2640	130.0000	25.0000	17.2386	8.0000	41.0000	41.1492
2650	132.0000	55.0000	41.8798	8.0000	51.0000	42.7920
2660	135.0000	26.0000	6.5209	9.0000	1.0000	44.4347
2670	137.0000	56.0000	31.1621	9.0000	11.0000	46.0775
2680	140.0000	26.0000	55.8033	9.0000	21.0000	47.7202
2690	142.0000	57.0000	20.4445	9.0000	31.0000	49.3630
2700	145.0000	27.0000	45.0857	9.0000	41.0000	51.0057
2710	147.0000	58.0000	9.7269	9.0000	51.0000	52.6485
2720	150.0000	28.0000	34.3681	10.0000	1.0000	54.2912
2730	152.0000	58.0000	59.0092	10.0000	11.0000	55.9339
2740	155.0000	29.0000	23.6504	10.0000	21.0000	57.5767
2750	157.0000	59.0000	48.2916	10.0000	31.0000	59.2194
2760	160.0000	30.0000	12.9328	10.0000	42.0000	0.8622
2770	163.0000	0.0000	37.5740	10.0000	52.0000	2.5049
2780	165.0000	31.0000	2.2152	11.0000	2.0000	4.1477
2790	168.0000	1.0000	26.8563	11.0000	12.0000	5.7904
2800	170.0000	31.0000	51.4975	11.0000	22.0000	7.4332
2810	173.0000	2.0000	16.1387	11.0000	32.0000	9.0759
2820	175.0000	32.0000	40.7799	11.0000	42.0000	10.7187
2830	178.0000	3.0000	5.4211	11.0000	52.0000	12.3614
2840	180.0000	33.0000	30.0623	12.0000	2.0000	14.0042
2850	183.0000	3.0000	54.7034	12.0000	12.0000	15.6469
2860	185.0000	34.0000	19.3446	12.0000	22.0000	17.2896
2870	188.0000	4.0000	43.9858	12.0000	32.0000	18.9324
2880	190.0000	35.0000	8.6270	12.0000	42.0000	20.5751
2890	193.0000	5.0000	33.2682	12.0000	52.0000	22.2179
2900	195.0000	35.0000	57.9094	13.0000	2.0000	23.8606
2910	198.0000	6.0000	22.5506	13.0000	12.0000	25.5034
2920	200.0000	36.0000	47.1917	13.0000	22.0000	27.1461
2930	203.0000	7.0000	11.8329	13.0000	32.0000	28.7889
2940	205.0000	37.0000	36.4741	13.0000	42.0000	30.4316
2950	208.0000	8.0000	1.1153	13.0000	52.0000	32.0744
2960	210.0000	38.0000	25.7565	14.0000	2.0000	33.7171
2970	213.0000	8.0000	50.3977	14.0000	12.0000	35.3598
2980	215.0000	39.0000	15.0388	14.0000	22.0000	37.0026
2990	218.0000	9.0000	39.6800	14.0000	32.0000	38.6453
3000	220.0000	40.0000	4.3212	14.0000	42.0000	40.2881
3010	223.0000	10.0000	28.9624	14.0000	52.0000	41.9308
3020	225.0000	40.0000	53.6036	15.0000	2.0000	43.5736
3030	228.0000	11.0000	18.2448	15.0000	12.0000	45.2163
3040	230.0000	41.0000	42.8859	15.0000	22.0000	46.8591
3050	233.0000	12.0000	7.5271	15.0000	32.0000	48.5018
3060	235.0000	42.0000	32.1683	15.0000	42.0000	50.1446
3070	238.0000	12.0000	56.8095	15.0000	52.0000	51.7873
3080	240.0000	43.0000	21.4507	16.0000	2.0000	53.4300
3090	243.0000	13.0000	46.0919	16.0000	12.0000	55.0728
3100	245.0000	44.0000	10.7331	16.0000	22.0000	56.7155
3110	248.0000	14.0000	35.3742	16.0000	32.0000	58.3583
3120	250.0000	45.0000	0.0154	16.0000	43.0000	0.0010
3130	253.0000	15.0000	24.6566	16.0000	53.0000	1.6438
3140	255.0000	45.0000	49.2978	17.0000	3.0000	3.2865
3150	258.0000	16.0000	13.9390	17.0000	13.0000	4.9293
3160	260.0000	46.0000	38.5802	17.0000	23.0000	6.5720
3170	263.0000	17.0000	3.2213	17.0000	33.0000	8.2148
3180	265.0000	47.0000	27.8625	17.0000	43.0000	9.8575
3190	268.0000	17.0000	52.5037	17.0000	53.0000	11.5002
3200	270.0000	48.0000	17.1449	18.0000	3.0000	13.1430
3210	273.0000	18.0000	41.7861	18.0000	13.0000	14.7857
3220	275.0000	49.0000	6.4273	18.0000	23.0000	16.4285
3230	278.0000	19.0000	31.0684	18.0000	33.0000	18.0712
3240	280.0000	49.0000	55.7096	18.0000	43.0000	19.7140
3250	283.0000	20.0000	20.3508	18.0000	53.0000	21.3567
3260	285.0000	50.0000	44.9920	19.0000	3.0000	22.9995
3270	288.0000	21.0000	9.6332	19.0000	13.0000	24.6422
3280	290.0000	51.0000	34.2744	19.0000	23.0000	26.2850
3290	293.0000	21.0000	58.9156	19.0000	33.0000	27.9277
3300	295.0000	52.0000	23.5567	19.0000	43.0000	29.5704
3310	298.0000	22.0000	48.1979	19.0000	53.0000	31.2132
3320	300.0000	53.0000	12.8391	20.0000	3.0000	32.8559
3330	303.0000	23.0000	37.4803	20.0000	13.0000	34.4987
3340	305.0000	54.0000	2.1215	20.0000	23.0000	36.1414
3350	308.0000	24.0000	26.7627	20.0000	33.0000	37.7842
3360	310.0000	54.0000	51.4038	20.0000	43.0000	39.4269
3370	313.0000	25.0000	16.0450	20.0000	53.0000	41.0697
3380	315.0000	55.0000	40.6862	21.0000	3.0000	42.7124
3390	318.0000	26.0000	5.3274	21.0000	13.0000	44.3552
3400	320.0000	56.0000	29.9686	21.0000	23.0000	45.9979
3410	323.0000	26.0000	54.6098	21.0000	33.0000	47.6407
3420	325.0000	57.0000	19.2509	21.0000	43.0000	49.2834
3430	328.0000	27.0000	43.8921	21.0000	53.0000	50.9261
3440	330.0000	58.0000	8.5333	22.0000	3.0000	52.5689
3450	333.0000	28.0000	33.1745	22.0000	13.0000	54.2116
3460	335.0000	58.0000	57.8157	22.0000	23.0000	55.8544
3470	338.0000	29.0000	22.4569	22.0000	33.0000	57.4971
3480	340.0000	59.0000	47.0981	22.0000	43.0000	59.1399
3490	343.0000	30.0000	11.7392	22.0000	54.0000	0.7826
3500	346.0000	0.0000	36.3804	23.0000	4.0000	2.4254
3510	348.0000	31.0000	1.0216	23.0000	14.0000	4.0681
3520	351.0000	1.0000	25.6628	23.0000	24.0000	5.7109
3530	353.0000	31.0000	50.3040	23.0000	34.0000	7.3536
3540	356.0000	2.0000	14.9452	23.0000	44.0000	8.9963
3550	358.0000	32.0000	39.5863	23.0000	54.0000	10.6391
3560	1.0000	3.0000	4.2275	0.0000	4.0000	12.2818
3570	3.0000	33.0000	28.8687	0.0000	14.0000	13.9246
3580	6.0000	3.0000	53.5099	0.0000	24.0000	15.5673
3590	8.0000	34.0000	18.1511	0.0000	34.0000	17.2101
3600	11.0000	4.0000	42.7923	0.0000	44.0000	18.8528
3610	13.0000	35.0000	7.4334	0.0000	54.0000	20.4956
3620	16.0000	5.0000	32.0746	1.0000	4.0000	22.1383
3630	18.0000	35.0000	56.7158	1.0000	14.0000	23.7811
3640	21.0000	6.0000	21.3570	1.0000	24.0000	25.4238
3650	23.0000	36.0000	45.9982	1.0000	34.0000	27.0665
3660	26.0000	7.0000	10.6394	1.0000	44.0000	28.7093
3670	28.0000	37.0000	35.2806	1.0000	54.0000	30.3520
3680	31.0000	7.0000	59.9217	2.0000	4.0000	31.9948
3690	33.0000	38.0000	24.5629	2.0000	14.0000	33.6375
3700	36.0000	8.0000	49.2041	2.0000	24.0000	35.2803
3710	38.0000	39.0000	13.8453	2.0000	34.0000	36.9230
3720	41.0000	9.0000	38.4865	2.0000	44.0000	38.5658
3730	43.0000	40.0000	3.1277	2.0000	54.0000	40.2085
3740	46.0000	10.0000	27.7688	3.0000	4.0000	41.8513
3750	48.0000	40.0000	52.4100	3.0000	14.0000	43.4940
3760	51.0000	11.0000	17.0512	3.0000	24.0000	45.1367
3770	53.0000	41.0000	41.6924	3.0000	34.0000	46.7795
3780	56.0000	12.0000	6.3336	3.0000	44.0000	48.4222
3790	58.0000	42.0000	30.9748	3.0000	54.0000	50.0650
3800	61.0000	12.0000	55.6159	4.0000	4.0000	51.7077
3810	63.0000	43.0000	20.2571	4.0000	14.0000	53.3505
3820	66.0000	13.0000	44.8983	4.0000	24.0000	54.9932
3830	68.0000	44.0000	9.5395	4.0000	34.0000	56.6360
3840	71.0000	14.0000	34.1807	4.0000	44.0000	58.2787
3850	73.0000	44.0000	58.8219	4.0000	54.0000	59.9215
3860	76.0000	15.0000	23.4631	5.0000	5.0000	1.5642
3870	78.0000	45.0000	48.1042	5.0000	15.0000	3.2069
3880	81.0000	16.0000	12.7454	5.0000	25.0000	4.8497
3890	83.0000	46.0000	37.3866	5.0000	35.0000	6.4924
3900	86.0000	17.0000	2.0278	5.0000	45.0000	8.1352
3910	88.0000	47.0000	26.6690	5.0000	55.0000	9.7779
3920	91.0000	17.0000	51.3102	6.0000	5.0000	11.4207
3930	93.0000	48.0000	15.9513	6.0000	15.0000	13.0634
3940	96.0000	18.0000	40.5925	6.0000	25.0000	14.7062
3950	98.0000	49.0000	5.2337	6.0000	35.0000	16.3489
3960	101.0000	19.0000	29.8749	6.0000	45.0000	17.9917
3970	103.0000	49.0000	54.5161	6.0000	55.0000	19.6344
3980	106.0000	20.0000	19.1573	7.0000	5.0000	21.2772
3990	108.0000	50.0000	43.7984	7.0000	15.0000	22.9199
4000	111.0000	21.0000	8.4396	7.0000	25.0000	24.5626
4010	113.0000	51.0000	33.0808	7.0000	35.0000	26.2054
4020	116.0000	21.0000	57.7220	7.0000	45.0000	27.8481
4030	118.0000	52.0000	22.3632	7.0000	55.0000	29.4909
4040	121.0000	22.0000	47.0044	8.0000	5.0000	31.1336
4050	123.0000	53.0000	11.6456	8.0000	15.0000	32.7764
4060	126.0000	23.0000	36.2867	8.0000	25.0000	34.4191
4070	128.0000	54.0000	0.9279	8.0000	35.0000	36.0619
4080	131.0000	24.0000	25.5691	8.0000	45.0000	37.7046
4090	133.0000	54.0000	50.2103	8.0000	55.0000	39.3474
4100	136.0000	25.0000	14.8515	9.0000	5.0000	40.9901
4110	138.0000	55.0000	39.4927	9.0000	15.0000	42.6328
4120	141.0000	26.0000	4.1338	9.0000	25.0000	44.2756
4130	143.0000	56.0000	28.7750	9.0000	35.0000	45.9183
4140	146.0000	26.0000	53.4162	9.0000	45.0000	47.5611
4150	148.0000	57.0000	18.0574	9.0000	55.0000	49.2038
4160	151.0000	27.0000	42.6986	10.0000	5.0000	50.8466
4170	153.0000	58.0000	7.3398	10.0000	15.0000	52.4893
4180	156.0000	28.0000	31.9810	10.0000	25.0000	54.1321
4190	158.0000	58.0000	56.6221	10.0000	35.0000	55.7748
4200	161.0000	29.0000	21.2633	10.0000	45.0000	57.4176
4210	163.0000	59.0000	45.9045	10.0000	55.0000	59.0603
4220	166.0000	30.0000	10.5457	11.0000	6.0000	0.7030
4230	169.0000	0.0000	35.1869	11.0000	16.0000	2.3458
4240	171.0000	30.0000	59.8281	11.0000	26.0000	3.9885
4250	174.0000	1.0000	24.4692	11.0000	36.0000	5.6313
4260	176.0000	31.0000	49.1104	11.0000	46.0000	7.2740
4270	179.0000	2.0000	13.7516	11.0000	56.0000	8.9168
4280	181.0000	32.0000	38.3928	12.0000	6.0000	10.5595
4290	184.0000	3.0000	3.0340	12.0000	16.0000	12.2023
4300	186.0000	33.0000	27.6752	12.0000	26.0000	13.8450
4310	189.0000	3.0000	52.3163	12.0000	36.0000	15.4878
4320	191.0000	34.0000	16.9575	12.0000	46.0000	17.1305
